File: data/stocks/TGA.csv
0.0,15.0,13.75,13.75,11.5779,700
0.0,13.125,12.5,12.5,10.5254,500
0.0,13.125,12.5,12.5,10.5254,500
0.0,12.5,11.875,11.875,9.99911,600
0.0,11.875,11.25,11.25,9.47284,300
0.0,11.875,11.25,11.25,9.47284,400
0.0,11.25,10.625,10.625,8.94657,200
0.0,11.25,10.625,10.625,8.94657,400
0.0,11.25,10.625,10.625,8.94657,500
10.0,10.0,10.0,10.0,8.4203,0
0.0,10.0,9.375,9.375,7.89403,100
0.0,8.75,7.5,7.5,6.31522,0
0.0,6.875,5.625,5.625,4.73642,100
0.0,6.875,6.25,6.25,5.26269,100
0.0,6.875,6.25,6.25,5.26269,200
0.0,7.5,7.5,7.5,6.31522,100
8.125,8.125,8.125,8.125,6.84149,0
8.125,8.125,8.125,8.125,6.84149,0
6.875,6.875,6.875,6.875,5.78896,0
0.0,7.5,6.875,6.875,5.78896,200
0.0,7.5,6.875,6.875,5.78896,500
0.0,7.5,6.875,6.875,5.78896,0
6.875,6.875,6.875,6.875,5.78896,0
0.0,7.5,6.25,6.25,5.26269,100
0.0,6.875,6.25,6.25,5.26269,200
6.25,6.25,6.25,6.25,5.26269,0
0.0,5.0,4.6875,4.6875,3.94702,800
0.0,5.625,4.6875,4.6875,3.94702,0
0.0,3.4375,2.8125,2.8125,2.36821,500
0.0,4.6875,4.0625,4.0625,3.42075,1800
0.0,4.375,3.75,3.75,3.15761,400
0.0,4.6875,4.0625,4.0625,3.42075,500
4.0625,4.0625,4.0625,4.0625,3.42075,0
0.0,4.6875,4.0625,4.0625,3.42075,0
0.0,5.0,4.375,4.375,3.68388,400
3.75,3.75,3.75,3.75,3.15761,0
0.0,3.75,3.125,3.125,2.63134,400
0.0,5.0,4.375,4.375,3.68388,700
0.0,5.0,5.0,5.0,4.21015,200
0.0,6.25,5.0,5.0,4.21015,400
0.0,6.875,6.25,6.25,5.26269,1200
0.0,5.625,5.0,5.0,4.21015,400
0.0,5.625,5.0,5.0,4.21015,200
0.0,6.25,5.625,5.625,4.73642,100
0.0,6.25,5.625,5.625,4.73642,0
5.625,5.625,5.625,5.625,4.73642,0
0.0,5.0,4.375,4.375,3.68388,400
0.0,5.0,4.375,4.375,3.68388,100
0.0,4.375,3.75,3.75,3.15761,0
0.0,6.25,6.25,6.25,5.26269,1500
0.0,6.875,6.25,6.25,5.26269,1400
0.0,6.25,5.625,5.625,4.73642,1000
0.0,6.25,5.625,5.625,4.73642,5300
0.0,6.25,5.625,5.625,4.73642,300
0.0,5.0,4.6875,4.6875,3.94702,100
0.0,4.375,4.0625,4.0625,3.42075,700
0.0,5.0,4.375,4.375,3.68388,200
0.0,5.0,4.375,4.375,3.68388,0
0.0,4.84375,4.375,4.375,3.68388,300
0.0,4.84375,3.90625,3.90625,3.28918,400
0.0,4.0625,3.75,3.75,3.15761,200
0.0,4.0625,3.4375,3.4375,2.89448,300
0.0,4.0625,3.4375,3.4375,2.89448,100
0.0,3.75,2.8125,2.8125,2.36821,300
0.0,3.75,2.8125,2.8125,2.36821,100
0.0,3.75,3.125,3.125,2.63134,1300
0.0,4.0625,3.4375,3.4375,2.89448,1200
0.0,4.0625,3.75,3.75,3.15761,1100
0.0,4.375,3.4375,3.4375,2.89448,0
0.0,3.75,3.28125,3.28125,2.76291,300
0.0,3.125,2.65625,2.65625,2.23664,600
0.0,2.8125,2.5,2.5,2.10507,200
0.0,3.125,2.5,2.5,2.10507,500
2.5,2.5,2.5,2.5,2.10507,0
0.0,2.8125,2.5,2.5,2.10507,100
0.0,2.8125,2.5,2.5,2.10507,2800
0.0,3.125,2.5,2.5,2.10507,1200
2.5,2.5,2.5,2.5,2.10507,0
2.5,2.5,2.5,2.5,2.10507,0
2.5,2.5,2.5,2.5,2.10507,0
0.0,2.8125,2.5,2.5,2.10507,1000
0.0,3.125,2.5,2.5,2.10507,400
2.5,2.5,2.5,2.5,2.10507,0
2.5,2.5,2.5,2.5,2.10507,0
2.5,2.5,2.5,2.5,2.10507,0
0.0,3.125,2.5,2.5,2.10507,200
0.0,3.125,2.5,2.5,2.10507,1400
0.0,3.4375,2.65625,2.65625,2.23664,2400
2.65625,2.65625,2.65625,2.65625,2.23664,0
2.65625,2.65625,2.65625,2.65625,2.23664,0
0.0,3.125,2.1875,2.1875,1.84194,0
0.0,3.125,2.1875,2.1875,1.84194,100
0.0,3.4375,2.5,2.5,2.10507,2000
0.0,4.375,3.75,3.75,3.15761,2500
0.0,4.0625,3.4375,3.4375,2.89448,200
0.0,4.0625,3.125,3.125,2.63134,200
3.125,3.125,3.125,3.125,2.63134,0
0.0,4.0625,3.125,3.125,2.63134,0
3.125,3.125,3.125,3.125,2.63134,0
0.0,3.75,2.8125,2.8125,2.36821,2000
0.0,3.125,2.1875,2.1875,1.84194,1700
0.0,3.125,2.1875,2.1875,1.84194,600
0.0,3.125,2.5,2.5,2.10507,600
0.0,3.125,2.5,2.5,2.10507,1800
2.1875,2.1875,2.1875,2.1875,1.84194,0
0.0,3.125,2.5,2.5,2.10507,100
0.0,2.8125,2.5,2.5,2.10507,800
2.5,2.5,2.5,2.5,2.10507,0
2.8125,2.8125,2.8125,2.8125,2.36821,0
0.0,4.0625,3.125,3.125,2.63134,1800
0.0,7.5,6.875,6.875,5.78896,5300
0.0,10.625,9.375,9.375,7.89403,2700
0.0,10.0,8.75,8.75,7.36776,5700
0.0,11.25,10.625,10.625,8.94657,4100
0.0,10.625,10.0,10.0,8.4203,5100
0.0,11.25,10.0,10.0,8.4203,2300
0.0,9.375,8.75,8.75,7.36776,600
0.0,8.125,7.5,7.5,6.31522,1100
0.0,7.5,7.5,7.5,6.31522,1200
0.0,6.25,5.625,5.625,4.73642,2200
0.0,6.875,6.25,6.25,5.26269,2800
0.0,7.5,6.875,6.875,5.78896,200
0.0,7.5,6.875,6.875,5.78896,2100
0.0,8.125,7.5,7.5,6.31522,1200
0.0,7.5,6.875,6.875,5.78896,800
0.0,7.5,6.875,6.875,5.78896,0
0.0,7.5,6.875,6.875,5.78896,400
0.0,5.625,5.0,5.0,4.21015,400
0.0,5.625,5.0,5.0,4.21015,500
0.0,5.625,4.6875,4.6875,3.94702,1400
0.0,6.25,5.625,5.625,4.73642,1100
0.0,5.0,4.0625,4.0625,3.42075,700
0.0,4.0625,3.125,3.125,2.63134,3200
0.0,4.6875,3.75,3.75,3.15761,300
0.0,5.0,4.375,4.375,3.68388,400
0.0,4.6875,3.75,3.75,3.15761,100
0.0,4.0625,3.4375,3.4375,2.89448,2900
0.0,4.0625,3.125,3.125,2.63134,700
3.125,3.125,3.125,3.125,2.63134,0
0.0,4.0625,3.125,3.125,2.63134,0
0.0,4.0625,3.125,3.125,2.63134,200
0.0,3.75,2.8125,2.8125,2.36821,1200
0.0,3.75,2.8125,2.8125,2.36821,100
0.0,2.8125,2.1875,2.1875,1.84194,800
2.5,2.5,2.5,2.5,2.10507,0
2.5,2.5,2.5,2.5,2.10507,0
0.0,3.75,3.125,3.125,2.63134,100
3.125,3.125,3.125,3.125,2.63134,0
0.0,3.75,3.125,3.125,2.63134,0
2.8125,2.8125,2.8125,2.8125,2.36821,0
2.8125,2.8125,2.8125,2.8125,2.36821,0
0.0,3.125,2.5,2.5,2.10507,200
2.5,2.5,2.5,2.5,2.10507,0
0.0,3.75,3.4375,3.4375,2.89448,200
3.4375,3.4375,3.4375,3.4375,2.89448,0
0.0,4.0625,3.4375,3.4375,2.89448,400
0.0,4.0625,3.125,3.125,2.63134,200
0.0,3.4375,2.8125,2.8125,2.36821,600
3.125,3.125,3.125,3.125,2.63134,0
0.0,3.75,3.125,3.125,2.63134,100
2.5,2.5,2.5,2.5,2.10507,0
0.0,3.125,2.5,2.5,2.10507,400
2.1875,2.1875,2.1875,2.1875,1.84194,0
2.1875,2.1875,2.1875,2.1875,1.84194,0
0.0,3.125,2.1875,2.1875,1.84194,0
2.1875,2.1875,2.1875,2.1875,1.84194,0
0.0,3.125,2.5,2.5,2.10507,0
2.5,2.5,2.5,2.5,2.10507,0
2.5,2.5,2.5,2.5,2.10507,0
0.0,3.125,2.1875,2.1875,1.84194,300
0.0,2.8125,2.1875,2.1875,1.84194,400
1.875,1.875,1.875,1.875,1.57881,0
1.875,1.875,1.875,1.875,1.57881,0
0.0,2.5,1.875,1.875,1.57881,2100
0.0,2.5,1.875,1.875,1.57881,500
0.0,2.5,1.875,1.875,1.57881,1200
0.0,2.5,1.875,1.875,1.57881,200
1.875,1.875,1.875,1.875,1.57881,0
1.5625,1.5625,1.5625,1.5625,1.31567,0
1.875,1.875,1.875,1.875,1.57881,0
2.65625,2.65625,2.65625,2.65625,2.23664,0
0.0,3.125,2.5,2.5,2.10507,1300
2.5,2.5,2.5,2.5,2.10507,0
0.0,3.4375,2.5,2.5,2.10507,0
2.5,2.5,2.5,2.5,2.10507,0
2.5,2.5,2.5,2.5,2.10507,0
0.0,3.125,2.5,2.5,2.10507,700
0.0,2.5,2.1875,2.1875,1.84194,1800
1.875,1.875,1.875,1.875,1.57881,0
1.875,1.875,1.875,1.875,1.57881,0
0.0,2.8125,2.1875,2.1875,1.84194,1900
0.0,2.8125,2.1875,2.1875,1.84194,100
0.0,3.125,2.5,2.5,2.10507,500
0.0,3.125,2.5,2.5,2.10507,2100
0.0,3.125,2.1875,2.1875,1.84194,100
0.0,3.125,2.1875,2.1875,1.84194,600
2.1875,2.1875,2.1875,2.1875,1.84194,0
2.1875,2.1875,2.1875,2.1875,1.84194,0
1.875,1.875,1.875,1.875,1.57881,0
1.875,1.875,1.875,1.875,1.57881,0
1.875,1.875,1.875,1.875,1.57881,0
0.0,2.5,1.5625,1.5625,1.31567,200
0.0,2.8125,1.875,1.875,1.57881,1400
2.5,2.5,2.5,2.5,2.10507,0
2.5,2.5,2.5,2.5,2.10507,0
0.0,3.125,2.5,2.5,2.10507,500
0.0,3.75,3.125,3.125,2.63134,900
0.0,3.75,2.8125,2.8125,2.36821,200
0.0,3.125,2.8125,2.8125,2.36821,1200
2.8125,2.8125,2.8125,2.8125,2.36821,0
0.0,3.4375,2.8125,2.8125,2.36821,0
0.0,3.125,2.8125,2.8125,2.36821,100
2.1875,2.1875,2.1875,2.1875,1.84194,0
2.1875,2.1875,2.1875,2.1875,1.84194,0
2.1875,2.1875,2.1875,2.1875,1.84194,0
0.0,2.8125,2.1875,2.1875,1.84194,4300
0.0,2.5,1.5625,1.5625,1.31567,0
1.5625,1.5625,1.5625,1.5625,1.31567,0
0.0,2.1875,1.5625,1.5625,1.31567,800
1.5625,1.5625,1.5625,1.5625,1.31567,0
1.5625,1.5625,1.5625,1.5625,1.31567,0
2.1875,2.1875,2.1875,2.1875,1.84194,0
0.0,2.8125,1.875,1.875,1.57881,200
1.875,1.875,1.875,1.875,1.57881,0
0.0,2.5,1.875,1.875,1.57881,1000
1.875,1.875,1.875,1.875,1.57881,0
1.5625,1.5625,1.5625,1.5625,1.31567,0
1.875,1.875,1.875,1.875,1.57881,0
1.875,1.875,1.875,1.875,1.57881,0
1.875,1.875,1.875,1.875,1.57881,0
1.875,1.875,1.875,1.875,1.57881,0
1.875,1.875,1.875,1.875,1.57881,0
0.0,2.1875,1.25,1.25,1.05254,400
1.25,1.25,1.25,1.25,1.05254,0
1.25,1.25,1.25,1.25,1.05254,0
0.0,2.1875,1.25,1.25,1.05254,1600
0.9375,0.9375,0.9375,0.9375,0.789403,0
0.0,1.875,0.9375,0.9375,0.789403,200
0.625,0.625,0.625,0.625,0.526269,0
0.625,0.625,0.625,0.625,0.526269,0
0.625,0.625,0.625,0.625,0.526269,0
0.625,0.625,0.625,0.625,0.526269,0
0.625,0.625,0.625,0.625,0.526269,0
0.0,1.25,0.625,0.625,0.526269,300
0.0,1.25,0.46875,0.46875,0.394701,200
0.0,1.25,0.625,0.625,0.526269,500
0.625,0.625,0.625,0.625,0.526269,0
0.0,1.25,0.78125,0.78125,0.657836,900
0.625,0.625,0.625,0.625,0.526269,0
0.625,0.625,0.625,0.625,0.526269,0
0.0,0.9375,0.625,0.625,0.526269,100
0.0,0.9375,0.625,0.625,0.526269,200
0.625,0.625,0.625,0.625,0.526269,0
0.625,0.625,0.625,0.625,0.526269,0
0.625,0.625,0.625,0.625,0.526269,0
0.625,0.625,0.625,0.625,0.526269,0
0.0,1.25,0.625,0.625,0.526269,200
0.625,0.625,0.625,0.625,0.526269,0
0.0,0.9375,0.625,0.625,0.526269,200
0.0,0.9375,0.625,0.625,0.526269,700
0.625,0.625,0.625,0.625,0.526269,0
0.0,1.25,0.625,0.625,0.526269,100
0.625,0.625,0.625,0.625,0.526269,0
0.625,0.625,0.625,0.625,0.526269,0
0.0,1.25,0.625,0.625,0.526269,200
0.625,0.625,0.625,0.625,0.526269,0
0.625,0.625,0.625,0.625,0.526269,0
0.625,0.625,0.625,0.625,0.526269,0
0.625,0.625,0.625,0.625,0.526269,0
0.625,0.625,0.625,0.625,0.526269,0
0.625,0.625,0.625,0.625,0.526269,0
0.625,0.625,0.625,0.625,0.526269,0
0.0,1.25,0.625,0.625,0.526269,0
0.625,0.625,0.625,0.625,0.526269,0
0.0,1.25,0.625,0.625,0.526269,100
0.625,0.625,0.625,0.625,0.526269,0
0.0,0.9375,0.625,0.625,0.526269,4400
0.0,1.25,0.625,0.625,0.526269,1300
0.625,0.625,0.625,0.625,0.526269,0
0.0,0.9375,0.46875,0.46875,0.394701,500
0.0,0.9375,0.46875,0.46875,0.394701,200
0.0,0.9375,0.3125,0.3125,0.263134,500
0.3125,0.3125,0.3125,0.3125,0.263134,0
0.3125,0.3125,0.3125,0.3125,0.263134,0
0.3125,0.3125,0.3125,0.3125,0.263134,0
0.3125,0.3125,0.3125,0.3125,0.263134,0
0.3125,0.3125,0.3125,0.3125,0.263134,0
0.3125,0.3125,0.3125,0.3125,0.263134,0
0.3125,0.3125,0.3125,0.3125,0.263134,0
0.0,0.9375,0.3125,0.3125,0.263134,1000
0.3125,0.3125,0.3125,0.3125,0.263134,0
0.3125,0.3125,0.3125,0.3125,0.263134,0
0.3125,0.3125,0.3125,0.3125,0.263134,0
0.0,0.625,0.3125,0.3125,0.263134,400
0.0,0.625,0.3125,0.3125,0.263134,1000
0.0,0.9375,0.625,0.625,0.526269,4600
0.0,1.875,1.625,1.625,1.3683,16800
0.0,1.875,1.625,1.625,1.3683,2200
1.625,1.625,1.625,1.625,1.3683,0
0.0,1.8125,1.8125,1.8125,1.52618,1000
0.0,1.875,1.8125,1.875,1.57881,3500
0.0,1.9375,1.8125,1.9375,1.63143,800
0.0,2.0,1.875,1.9375,1.63143,7700
0.0,2.0,2.0,2.0,1.68406,1000
0.0,2.375,2.375,2.375,1.99982,200
0.0,2.375,2.3125,2.3125,1.94719,7500
0.0,2.375,2.25,2.375,1.99982,6600
0.0,2.25,2.0,2.0625,1.73669,20200
0.0,1.5,1.125,1.25,1.05254,19400
0.0,1.0625,1.0,1.0625,0.894657,12500
1.0,1.0,1.0,1.0,0.84203,0
0.0,1.0625,1.0625,1.0625,0.894657,1000
0.0,1.0625,1.0625,1.0625,0.894657,300
0.0,1.25,1.0625,1.0625,0.894657,2200
0.0,1.375,1.375,1.375,1.15779,1000
0.0,1.28125,1.25,1.28125,1.07885,20000
0.0,1.5625,1.375,1.375,1.15779,9200
0.0,1.6875,1.59375,1.59375,1.34199,39000
0.0,1.6875,1.53125,1.53125,1.28936,12900
0.0,1.75,1.75,1.75,1.47355,1500
0.0,1.6875,1.5625,1.5625,1.31567,21400
0.0,1.75,1.75,1.75,1.47355,200
0.0,1.625,1.625,1.625,1.3683,3500
0.0,2.5,2.25,2.5,2.10507,38200
0.0,2.625,2.375,2.625,2.21033,3500
0.0,2.5,2.375,2.5,2.10507,17200
0.0,2.5,2.34375,2.5,2.10507,4700
0.0,2.5,2.375,2.4375,2.05245,24100
0.0,2.6875,2.5,2.59375,2.18401,20500
0.0,2.5,2.375,2.375,1.99982,10300
0.0,2.5,2.375,2.5,2.10507,5000
0.0,2.5,2.25,2.375,1.99982,40000
0.0,2.6875,2.5625,2.6875,2.26296,10300
0.0,2.625,2.5625,2.59375,2.18401,30800
0.0,2.6875,2.5625,2.6875,2.26296,52200
0.0,3.0625,2.75,3.0625,2.57872,214300
0.0,6.0625,4.875,5.5,4.63116,177200
0.0,5.375,5.0,5.25,4.42066,56800
0.0,5.0625,4.125,4.75,3.99964,135200
0.0,6.0,4.5,5.5,4.63116,229700
0.0,6.5,5.875,6.0,5.05218,92400
0.0,7.6875,7.0,7.25,6.10472,135800
0.0,7.0,6.375,6.5625,5.52582,102500
0.0,5.875,5.3125,5.75,4.84167,65400
0.0,5.1875,4.9375,5.125,4.3154,117000
0.0,5.0,4.75,5.0,4.21015,28800
0.0,5.0,4.75,4.75,3.99964,4700
0.0,5.875,5.6875,5.78125,4.86799,32700
0.0,5.5,5.125,5.3125,4.47328,74000
0.0,5.1875,4.875,5.0625,4.26278,77100
0.0,5.75,5.25,5.25,4.42066,43800
0.0,4.5,4.125,4.5,3.78913,39500
0.0,5.0,4.6875,5.0,4.21015,40800
0.0,4.625,4.375,4.4375,3.73651,15900
0.0,4.4375,4.25,4.25,3.57863,29000
0.0,4.5625,4.5,4.5,3.78913,11700
0.0,4.25,4.0,4.0,3.36812,22500
0.0,4.1875,4.0625,4.125,3.47337,25400
0.0,4.375,4.0,4.25,3.57863,20400
0.0,3.75,3.25,3.25,2.7366,87600
0.0,3.0625,2.875,3.0625,2.57872,180900
0.0,4.625,3.875,4.375,3.68388,374400
0.0,4.875,4.25,4.75,3.99964,287400
0.0,4.5,3.875,4.125,3.47337,84200
0.0,4.75,4.625,4.625,3.89439,24300
0.0,6.125,5.625,5.78125,4.86799,239800
0.0,5.125,5.0,5.0,4.21015,72400
4.875,5.125,4.625,4.75,3.99964,56400
4.8125,4.8125,4.5,4.5625,3.84176,78500
5.375,5.375,5.125,5.1875,4.36803,40900
5.25,5.25,5.0,5.25,4.42066,28400
4.8125,4.8125,4.5,4.5,3.78913,69500
4.0,4.375,4.0,4.25,3.57863,41900
4.25,4.25,3.75,3.9375,3.31549,4600
4.375,4.375,4.125,4.125,3.47337,43400
4.0,4.0,3.75,3.875,3.26287,28300
3.9375,4.0,3.875,4.0,3.36812,9400
4.0625,4.125,4.0,4.125,3.47337,26600
3.625,3.875,3.5,3.625,3.05236,13700
3.5,3.5,3.375,3.5,2.9471,16800
3.6875,3.875,3.625,3.875,3.26287,7500
3.375,3.5,3.25,3.5,2.9471,25900
3.75,3.75,3.625,3.625,3.05236,600
3.625,3.75,3.5625,3.75,3.15761,16100
4.625,4.625,4.25,4.5,3.78913,25300
4.5625,4.5625,4.125,4.125,3.47337,38500
4.375,4.625,4.375,4.625,3.89439,35100
4.5,4.75,4.3125,4.375,3.68388,20300
3.875,4.375,3.875,4.25,3.57863,82000
4.5,4.75,4.25,4.625,3.89439,69000
3.875,4.0,3.75,4.0,3.36812,6200
3.625,3.875,3.625,3.875,3.26287,3700
3.125,3.25,3.125,3.25,2.7366,7000
3.4375,3.4375,3.25,3.25,2.7366,4100
3.0,3.25,2.875,3.125,2.63134,20000
2.9375,3.25,2.9375,3.09375,2.60503,18400
2.9375,3.25,2.875,3.0625,2.57872,20800
2.75,3.125,2.75,3.125,2.63134,15700
2.75,3.0,2.75,3.0,2.52609,29300
3.1875,3.375,3.125,3.3125,2.78922,41200
2.75,2.875,2.625,2.875,2.42084,9900
2.875,3.0,2.75,3.0,2.52609,9700
2.875,3.0,2.875,2.875,2.42084,33200
1.375,1.75,1.25,1.5,1.26304,65100
1.625,1.625,1.375,1.5625,1.31567,25600
2.125,2.375,2.0,2.375,1.99982,22200
2.25,2.25,2.0,2.0,1.68406,28700
2.125,2.125,1.8125,2.0625,1.73669,23000
3.0,3.625,2.875,3.125,2.63134,230100
3.25,3.25,2.75,2.875,2.42084,51100
5.125,5.375,4.875,5.125,4.3154,390300
4.625,4.875,4.375,4.625,3.89439,52200
4.375,4.875,4.375,4.875,4.1049,59200
4.875,4.875,4.625,4.6875,3.94702,126700
4.125,4.125,3.875,4.125,3.47337,27400
5.1875,5.625,5.0,5.625,4.73642,69000
5.375,5.75,4.625,4.6875,3.94702,405200
4.625,4.625,4.25,4.625,3.89439,18200
4.75,4.875,4.5,4.5,3.78913,15100
4.625,4.625,4.25,4.25,3.57863,6100
4.875,5.0,4.5,5.0,4.21015,60000
4.875,5.125,4.625,5.0,4.21015,48200
5.375,5.625,5.125,5.375,4.52591,96600
4.375,4.5,3.75,4.0,3.36812,98200
4.125,4.25,4.0,4.0,3.36812,22700
3.75,4.0,2.625,3.0,2.52609,133000
3.0,3.125,2.75,3.0,2.52609,58000
3.0,3.25,2.875,2.875,2.42084,17500
2.875,2.875,2.5625,2.875,2.42084,6400
2.6875,3.0,2.625,3.0,2.52609,65400
3.25,3.25,3.0,3.125,2.63134,8100
2.75,3.0,2.75,3.0,2.52609,46400
3.125,3.25,2.75,3.125,2.63134,39200
3.125,3.5,2.875,2.9375,2.47346,20500
3.6875,4.0,3.6875,3.875,3.26287,51700
3.75,4.125,3.75,4.125,3.47337,32400
3.625,3.625,3.25,3.5,2.9471,17400
3.3125,3.5,3.3125,3.3125,2.78922,31300
4.125,4.375,4.0,4.375,3.68388,113900
4.125,4.875,4.125,4.6875,3.94702,168400
4.8125,4.8125,4.5625,4.5625,3.84176,30600
3.25,4.03125,3.25,3.875,3.26287,56200
4.875,4.875,4.375,4.6875,3.94702,79300
4.03125,4.03125,3.6875,3.6875,3.10499,10700
3.75,3.75,3.5,3.5,2.9471,8300
3.75,3.75,3.3125,3.75,3.15761,3500
3.5,3.75,3.375,3.75,3.15761,23000
3.25,3.3125,3.0,3.25,2.7366,57800
3.125,3.125,2.875,2.875,2.42084,18600
3.0,3.0,2.75,2.75,2.31558,12300
2.75,3.0,2.5,2.75,2.31558,63900
2.6875,2.6875,2.6875,2.6875,2.26296,1300
2.5,2.625,2.25,2.28125,1.92088,86500
2.625,3.125,2.5,2.8125,2.36821,96900
2.9375,3.0625,2.8125,2.875,2.42084,31500
2.375,2.6875,2.375,2.5,2.10507,54400
2.375,2.40625,2.3125,2.3125,1.94719,13100
1.875,2.1875,1.875,2.1875,1.84194,20700
1.75,2.0,1.75,1.8125,1.52618,39800
1.625,1.6875,1.5,1.6875,1.42093,23600
1.5625,1.5625,1.375,1.5,1.26304,104500
1.375,1.4375,1.1875,1.375,1.15779,111500
1.125,1.125,0.96875,1.0,0.84203,126600
1.09375,1.09375,1.0,1.0,0.84203,195000
1.75,2.25,1.65625,2.1875,1.84194,820900
2.25,2.25,1.875,2.125,1.78931,430000
1.6875,1.75,1.5,1.625,1.3683,444100
1.65625,1.75,1.53125,1.5625,1.31567,73300
1.65625,1.65625,1.4375,1.65625,1.39461,56800
1.71875,1.84375,1.59375,1.75,1.47355,715000
1.9375,2.0,1.75,1.875,1.57881,141900
1.875,2.0,1.875,1.9375,1.63143,161400
1.65625,1.65625,1.5625,1.625,1.3683,89400
1.5,1.53125,1.40625,1.5,1.26304,31000
1.53125,1.53125,1.46875,1.53125,1.28936,53900
1.875,1.875,1.75,1.75,1.47355,42000
2.125,2.125,2.0,2.125,1.78931,49400
1.9375,2.0,1.875,1.9375,1.63143,50300
1.8125,1.8125,1.75,1.75,1.47355,29300
1.375,1.46875,1.25,1.46875,1.23673,124400
1.15625,1.1875,1.125,1.1875,0.999911,19400
1.5,1.5,1.375,1.4375,1.21042,19600
1.4375,1.5625,1.4375,1.5,1.26304,14600
1.4375,1.4375,1.3125,1.3125,1.10516,7700
1.5,1.5,1.375,1.375,1.15779,28200
1.5,1.5,1.375,1.4375,1.21042,11500
1.4375,1.5,1.3125,1.375,1.15779,97500
1.375,1.4375,1.3125,1.3125,1.10516,16600
1.25,1.375,1.25,1.3125,1.10516,65300
1.1875,1.25,0.9375,1.09375,0.92097,155000
1.3125,1.375,1.3125,1.3125,1.10516,7200
1.1875,1.25,1.125,1.25,1.05254,57800
1.15625,1.15625,1.15625,1.15625,0.973597,12300
1.4375,1.4375,1.25,1.375,1.15779,41200
1.125,1.1875,1.0625,1.0625,0.894657,45100
1.0,1.0625,1.0,1.03125,0.868343,27800
1.0,1.0,0.96875,0.96875,0.815716,34700
1.03125,1.03125,0.90625,0.90625,0.76309,60100
0.8125,0.875,0.8125,0.875,0.736776,69300
0.90625,0.96875,0.84375,0.875,0.736776,30400
1.4375,1.4375,1.3125,1.375,1.15779,57500
1.25,1.25,1.125,1.125,0.947284,71600
1.21875,1.25,1.125,1.140625,0.96044,59800
1.375,1.375,1.25,1.34375,1.13148,35600
1.125,1.25,1.125,1.1875,0.999911,12200
1.125,1.15625,1.125,1.125,0.947284,26500
1.125,1.125,1.0,1.125,0.947284,7700
0.9375,1.0,0.84375,0.875,0.736776,127000
0.875,0.9375,0.875,0.9375,0.789403,9500
0.875,0.875,0.875,0.875,0.736776,4000
0.75,0.8125,0.75,0.8125,0.684149,20500
0.78125,0.8125,0.75,0.75,0.631522,42500
0.75,0.75,0.71875,0.71875,0.605209,15900
0.625,0.6875,0.625,0.625,0.526269,32800
0.625,0.71875,0.59375,0.703125,0.592052,83200
0.625,0.625,0.5625,0.5625,0.473642,49200
0.59375,0.65625,0.59375,0.625,0.526269,52100
0.625,0.625,0.5,0.5,0.421015,15200
0.46875,0.46875,0.453125,0.453125,0.381545,10400
0.34375,0.4375,0.34375,0.375,0.315761,23800
0.34375,0.375,0.3125,0.34375,0.289448,142600
0.34375,0.34375,0.3125,0.3125,0.263134,9900
0.375,0.375,0.34375,0.34375,0.289448,60200
0.21875,0.21875,0.21875,0.21875,0.184194,0
0.125,0.1875,0.109375,0.15625,0.131567,615400
0.234375,0.234375,0.234375,0.234375,0.197351,200
0.140625,0.15625,0.125,0.125,0.105254,31500
0.125,0.125,0.125,0.125,0.105254,5500
0.1875,0.1875,0.1875,0.1875,0.157881,500
0.125,0.125,0.109375,0.125,0.105254,299000
0.15625,0.15625,0.140625,0.140625,0.11841,9700
0.15625,0.15625,0.15625,0.15625,0.131567,6200
0.140625,0.140625,0.09375,0.09375,0.0789403,38100
0.125,0.1875,0.109375,0.15625,0.131567,162300
0.1875,0.1875,0.125,0.15625,0.131567,37700
0.21875,0.21875,0.1875,0.1875,0.157881,1100
0.21875,0.21875,0.21875,0.21875,0.184194,6000
0.1875,0.21875,0.1875,0.21875,0.184194,9500
0.203125,0.21875,0.203125,0.203125,0.171037,48500
0.21875,0.21875,0.1875,0.1875,0.157881,8600
0.21875,0.21875,0.1875,0.21875,0.184194,8500
0.203125,0.203125,0.203125,0.203125,0.171037,23500
0.1875,0.1875,0.1875,0.1875,0.157881,0
0.15625,0.15625,0.15625,0.15625,0.131567,0
0.15625,0.1875,0.15625,0.1875,0.157881,7000
0.125,0.125,0.125,0.125,0.105254,10000
0.171875,0.171875,0.140625,0.171875,0.144724,27900
0.1875,0.1875,0.1875,0.1875,0.157881,4400
0.1875,0.1875,0.1875,0.1875,0.157881,300
0.34375,0.34375,0.34375,0.34375,0.289448,3700
0.296875,0.34375,0.296875,0.34375,0.289448,36500
0.3125,0.3125,0.28125,0.296875,0.249978,145500
0.34375,0.34375,0.3125,0.3125,0.263134,20000
0.3125,0.3125,0.3125,0.3125,0.263134,1500
0.28125,0.28125,0.28125,0.28125,0.236821,5100
0.3125,0.34375,0.3125,0.3125,0.263134,22900
0.40625,0.515625,0.40625,0.453125,0.381545,198600
0.4375,0.4375,0.40625,0.40625,0.342075,16900
0.375,0.40625,0.359375,0.40625,0.342075,27700
0.375,0.4375,0.375,0.4375,0.368388,215800
0.40625,0.40625,0.40625,0.40625,0.342075,500
0.375,0.375,0.375,0.375,0.315761,0
0.40625,0.40625,0.40625,0.40625,0.342075,3000
0.3125,0.359375,0.3125,0.359375,0.302604,4300
0.359375,0.359375,0.296875,0.296875,0.249978,24200
0.375,0.375,0.359375,0.375,0.315761,24900
0.390625,0.40625,0.375,0.40625,0.342075,62200
0.34375,0.34375,0.34375,0.34375,0.289448,8000
0.34375,0.4375,0.34375,0.34375,0.289448,3700
0.421875,0.421875,0.34375,0.34375,0.289448,25100
0.359375,0.4375,0.359375,0.4375,0.368388,97600
0.3125,0.421875,0.3125,0.3125,0.263134,3000
0.40625,0.40625,0.40625,0.40625,0.342075,0
0.34375,0.390625,0.34375,0.359375,0.302604,58500
0.5,0.5,0.4375,0.5,0.421015,44000
0.453125,0.453125,0.40625,0.40625,0.342075,33600
0.40625,0.421875,0.40625,0.421875,0.355231,43500
0.40625,0.40625,0.40625,0.40625,0.342075,13500
0.5,0.578125,0.5,0.578125,0.486798,137400
0.65625,0.6875,0.59375,0.59375,0.499955,33800
0.515625,0.65625,0.515625,0.65625,0.552582,77100
0.71875,0.75,0.546875,0.546875,0.460485,166300
0.65625,0.6875,0.625,0.625,0.526269,19100
0.5625,0.59375,0.546875,0.59375,0.499955,146900
0.5,0.625,0.453125,0.625,0.526269,21300
0.515625,0.515625,0.515625,0.515625,0.434172,1000
0.5,0.5,0.40625,0.421875,0.355231,151200
0.5,0.5,0.4375,0.484375,0.407858,28800
0.484375,0.5,0.453125,0.5,0.421015,23500
0.453125,0.484375,0.4375,0.484375,0.407858,26600
0.5,0.515625,0.453125,0.46875,0.394701,47700
0.5,0.5,0.5,0.5,0.421015,10200
0.484375,0.484375,0.484375,0.484375,0.407858,12000
0.515625,0.515625,0.484375,0.484375,0.407858,131700
0.578125,0.703125,0.578125,0.703125,0.592052,177000
0.640625,0.703125,0.625,0.65625,0.552582,42800
0.625,0.625,0.5625,0.59375,0.499955,116600
0.609375,0.71875,0.609375,0.65625,0.552582,88700
0.640625,0.640625,0.625,0.625,0.526269,29400
0.75,0.75,0.65625,0.71875,0.605209,410000
1.0,1.0,0.875,0.90625,0.76309,77400
0.875,0.921875,0.84375,0.84375,0.710463,43500
0.703125,0.734375,0.65625,0.671875,0.565739,48500
0.671875,0.671875,0.625,0.65625,0.552582,26100
0.484375,0.546875,0.484375,0.546875,0.460485,15500
0.4375,0.484375,0.4375,0.4375,0.368388,70200
0.4375,0.453125,0.40625,0.421875,0.355231,123500
0.4375,0.453125,0.40625,0.40625,0.342075,136900
0.375,0.421875,0.375,0.390625,0.328918,27400
0.375,0.40625,0.375,0.375,0.315761,14500
0.40625,0.421875,0.40625,0.421875,0.355231,17100
0.40625,0.40625,0.390625,0.390625,0.328918,66000
0.40625,0.453125,0.40625,0.4375,0.368388,227800
0.375,0.375,0.375,0.375,0.315761,30500
0.34375,0.34375,0.3125,0.3125,0.263134,56500
0.3125,0.3125,0.28125,0.28125,0.236821,18000
0.28125,0.28125,0.25,0.28125,0.236821,122700
0.38,0.38,0.34,0.38,0.319971,25000
0.34,0.38,0.34,0.38,0.319971,6000
0.35,0.35,0.35,0.35,0.29471,6500
0.37,0.37,0.37,0.37,0.311551,5000
0.48,0.48,0.38,0.4,0.336812,134800
0.37,0.37,0.34,0.37,0.311551,25700
0.33,0.36,0.33,0.36,0.303131,39500
0.32,0.34,0.32,0.33,0.27787,60000
0.28,0.3,0.28,0.3,0.252609,35000
0.3,0.3,0.3,0.3,0.252609,20000
0.3,0.3,0.26,0.26,0.218928,11700
0.28,0.28,0.28,0.28,0.235768,4200
0.28,0.28,0.27,0.27,0.227348,20600
0.33,0.33,0.33,0.33,0.27787,0
0.29,0.29,0.29,0.29,0.244189,1000
0.26,0.26,0.22,0.22,0.185247,25000
0.19,0.21,0.19,0.21,0.176826,7000
0.19,0.2,0.19,0.19,0.159986,22000
0.18,0.19,0.18,0.19,0.159986,56000
0.2,0.2,0.2,0.2,0.168406,0
0.25,0.25,0.25,0.25,0.210507,0
0.23,0.26,0.23,0.26,0.218928,7600
0.23,0.32,0.23,0.29,0.244189,446200
0.25,0.25,0.25,0.25,0.210507,0
0.29,0.3,0.29,0.29,0.244189,55800
0.34,0.43,0.34,0.41,0.345232,273400
0.4,0.4,0.35,0.37,0.311551,118300
0.45,0.45,0.36,0.4,0.336812,52500
0.35,0.35,0.35,0.35,0.29471,5000
0.27,0.32,0.27,0.3,0.252609,19300
0.3,0.32,0.3,0.31,0.261029,60000
0.27,0.3,0.27,0.3,0.252609,2400
0.31,0.34,0.3,0.34,0.28629,26000
0.34,0.36,0.34,0.36,0.303131,87000
0.35,0.35,0.33,0.35,0.29471,53100
0.34,0.34,0.3,0.3,0.252609,11000
0.36,0.36,0.36,0.36,0.303131,0
0.35,0.35,0.3,0.32,0.26945,19800
0.36,0.36,0.3,0.34,0.28629,63000
0.39,0.39,0.36,0.36,0.303131,45900
0.34,0.35,0.34,0.35,0.29471,11200
0.31,0.31,0.31,0.31,0.261029,300
0.37,0.37,0.37,0.37,0.311551,0
0.32,0.33,0.3,0.33,0.27787,67200
0.3,0.32,0.3,0.3,0.252609,13800
0.3,0.3,0.28,0.29,0.244189,87400
0.3,0.31,0.24,0.3,0.252609,120300
0.29,0.33,0.29,0.33,0.27787,10100
0.31,0.34,0.29,0.31,0.261029,90000
0.3,0.31,0.29,0.31,0.261029,16000
0.3,0.3,0.3,0.3,0.252609,2500
0.29,0.32,0.29,0.32,0.26945,24400
0.32,0.33,0.32,0.33,0.27787,17000
0.34,0.36,0.33,0.33,0.27787,18800
0.37,0.37,0.33,0.35,0.29471,45600
0.3,0.32,0.3,0.32,0.26945,28900
0.31,0.31,0.31,0.31,0.261029,0
0.33,0.33,0.28,0.28,0.235768,1000
0.31,0.31,0.31,0.31,0.261029,0
0.38,0.49,0.38,0.49,0.412595,132000
0.37,0.39,0.37,0.38,0.319971,17000
0.41,0.41,0.37,0.4,0.336812,77800
0.41,0.41,0.38,0.38,0.319971,63000
0.45,0.46,0.43,0.46,0.387334,126800
0.39,0.4,0.39,0.4,0.336812,27000
0.4,0.4,0.4,0.4,0.336812,18300
0.38,0.44,0.38,0.41,0.345232,46700
0.42,0.48,0.41,0.42,0.353653,33700
0.45,0.48,0.45,0.47,0.395754,174200
0.44,0.45,0.42,0.45,0.378913,90700
0.48,0.49,0.46,0.46,0.387334,11000
0.45,0.47,0.45,0.47,0.395754,3500
0.46,0.48,0.46,0.48,0.404174,5000
0.49,0.49,0.45,0.46,0.387334,33800
0.47,0.5,0.47,0.47,0.395754,18700
0.51,0.51,0.47,0.49,0.412595,278300
0.54,0.54,0.51,0.53,0.446276,100100
0.53,0.53,0.49,0.53,0.446276,47700
0.5,0.5,0.48,0.49,0.412595,20700
0.48,0.5,0.48,0.5,0.421015,67800
0.49,0.53,0.49,0.53,0.446276,53800
0.52,0.52,0.5,0.51,0.429435,31500
0.53,0.55,0.51,0.54,0.454696,188700
0.8,0.81,0.72,0.75,0.631522,321700
0.69,0.72,0.68,0.7,0.589421,387600
1.06,1.08,0.97,0.98,0.825189,568100
1.04,1.04,0.99,1.01,0.85045,133200
0.94,0.95,0.87,0.88,0.740986,165900
1.01,1.05,0.99,1.04,0.875711,194200
1.03,1.14,1.03,1.12,0.943074,155500
1.16,1.16,1.11,1.11,0.934653,77800
1.13,1.2,1.12,1.18,0.993595,659100
1.79,1.8,1.67,1.71,1.43987,420800
1.82,1.84,1.66,1.72,1.44829,215700
1.75,1.75,1.63,1.71,1.43987,198200
2.21,2.25,2.0,2.05,1.72616,594400
2.48,2.57,2.44,2.57,2.16402,400200
2.57,2.61,2.39,2.43,2.04613,365500
2.62,2.78,2.6,2.73,2.29874,793300
2.95,3.0,2.86,2.97,2.50083,294100
2.42,2.46,2.35,2.37,1.99561,277700
2.45,2.53,2.32,2.32,1.95351,281600
2.31,2.39,2.3,2.39,2.01245,254200
2.9,2.9,2.69,2.69,2.26506,420200
2.41,2.54,2.4,2.43,2.04613,146400
2.42,2.42,2.28,2.35,1.97877,128300
2.63,2.81,2.63,2.79,2.34926,854600
2.89,2.93,2.67,2.74,2.30716,339500
2.48,2.59,2.48,2.52,2.12192,160500
2.36,2.37,2.3,2.31,1.94509,184700
2.38,2.38,2.25,2.35,1.97877,82900
2.36,2.43,2.26,2.29,1.92825,96800
2.45,2.5,2.38,2.4,2.02087,51200
2.35,2.35,2.26,2.26,1.90299,59800
2.51,2.73,2.46,2.71,2.2819,561300
2.78,2.81,2.77,2.8,2.35768,112900
2.56,2.68,2.55,2.66,2.2398,238200
2.55,2.55,2.5,2.52,2.12192,134600
2.36,2.53,2.32,2.52,2.12192,115100
2.36,2.42,2.36,2.4,2.02087,29100
2.46,2.53,2.34,2.41,2.02929,155400
2.24,2.37,2.2,2.36,1.98719,61700
2.16,2.3,2.16,2.28,1.91983,93600
2.87,2.87,2.76,2.82,2.37452,383200
3.28,3.33,3.23,3.25,2.7366,240300
3.95,4.01,3.85,3.87,3.25866,382100
3.87,4.24,3.86,4.22,3.55337,731600
3.86,3.93,3.77,3.8,3.19971,157400
3.88,3.88,3.72,3.83,3.22497,138200
3.82,3.86,3.75,3.83,3.22497,180200
5.49,5.52,5.26,5.36,4.51328,551900
4.73,4.99,4.7,4.77,4.01648,390400
5.1,5.2,5.07,5.18,4.36171,132800
5.11,5.12,5.05,5.12,4.31119,118600
4.72,4.77,4.61,4.69,3.94912,160300
5.7,6.02,5.69,5.9,4.96798,479700
6.5,6.78,6.3,6.37,5.36373,1188700
6.39,6.56,6.38,6.56,5.52372,300200
9.3,9.6,8.3,8.48,7.14041,1893100
7.7,7.77,7.35,7.45,6.27312,641800
6.55,6.65,6.2,6.31,5.31321,423300
6.65,6.65,6.18,6.33,5.33005,681900
6.62,6.65,6.45,6.47,5.44793,332000
5.71,5.81,5.49,5.67,4.77431,645600
5.6,5.89,5.6,5.72,4.81641,791900
5.48,5.48,5.06,5.14,4.32803,376700
5.21,5.28,4.8,5.01,4.21857,498800
4.49,4.58,4.22,4.34,3.65441,316500
5.36,5.5,5.3,5.33,4.48802,304400
6.41,6.5,6.35,6.46,5.43951,487900
6.89,6.92,6.82,6.9,5.81001,334800
6.61,6.75,6.48,6.67,5.61634,183100
6.99,7.02,6.76,6.76,5.69212,444600
6.25,6.32,6.12,6.21,5.22901,354700
6.8,6.81,6.28,6.47,5.44793,869500
6.41,6.52,6.37,6.49,5.46477,352100
6.33,6.44,6.27,6.4,5.38899,332800
6.27,6.3,6.17,6.23,5.24585,374100
6.12,6.18,5.95,6.03,5.07744,657900
6.75,6.95,6.41,6.72,5.65844,752000
6.33,6.35,6.26,6.29,5.29637,182500
5.56,5.99,5.56,5.97,5.02692,371100
4.96,5.02,4.53,4.57,3.84808,482200
4.76,5.05,4.76,4.87,4.10069,157300
5.24,5.34,5.11,5.22,4.3954,148000
5.2,5.24,5.08,5.12,4.31119,173700
5.15,5.27,5.11,5.17,4.35329,253300
5.54,5.56,5.33,5.43,4.57222,264800
5.39,5.62,5.39,5.53,4.65642,327300
5.28,5.32,4.98,5.12,4.31119,824700
5.0,5.16,5.0,5.13,4.31961,250400
5.25,5.48,5.25,5.4,4.54696,436200
6.15,6.18,5.85,5.95,5.01008,695700
5.91,5.93,5.74,5.78,4.86693,428600
5.8,5.8,5.65,5.69,4.79115,170200
6.04,6.15,5.87,5.94,5.00166,303200
5.6,5.65,5.55,5.57,4.69011,147900
5.41,5.55,5.41,5.52,4.64801,141000
5.37,5.39,5.26,5.33,4.48802,479400
5.83,6.0,5.83,5.9,4.96798,118200
6.05,6.11,6.0,6.04,5.08586,222300
5.9,5.94,5.76,5.85,4.92587,155000
5.61,5.7,5.44,5.45,4.58906,208600
5.0,5.15,5.0,5.08,4.27751,173900
5.21,5.39,5.17,5.29,4.45434,148200
4.7,4.7,4.32,4.35,3.66283,265400
4.65,4.65,4.5,4.59,3.86492,57300
4.86,5.2,4.86,5.15,4.33645,132500
4.91,5.0,4.81,4.82,4.05858,111000
4.5,4.6,4.5,4.53,3.8144,113500
4.8,4.8,4.54,4.7,3.95754,237100
4.8,4.86,4.74,4.86,4.09227,52800
4.85,4.85,4.8,4.85,4.08384,113600
4.9,4.95,4.8,4.85,4.08384,309900
4.68,4.7,4.62,4.65,3.91544,176600
4.68,4.77,4.56,4.63,3.8986,176200
4.77,4.88,4.74,4.79,4.03332,79600
4.4,4.75,4.4,4.71,3.96596,219800
4.81,4.84,4.72,4.77,4.01648,126700
4.69,4.72,4.54,4.6,3.87334,268200
4.6,4.74,4.6,4.71,3.96596,195400
5.24,5.25,5.0,5.15,4.33645,374400
5.14,5.3,5.1,5.19,4.37013,244100
5.38,5.59,5.37,5.43,4.57222,348600
5.23,5.23,5.04,5.06,4.26067,163500
5.01,5.01,4.8,4.82,4.05858,272100
4.65,4.77,4.65,4.74,3.99122,54000
4.99,5.11,4.95,5.08,4.27751,197300
5.08,5.1,4.66,4.8,4.04174,472200
4.5,4.66,4.45,4.63,3.8986,284400
4.65,4.72,4.46,4.54,3.82282,155000
4.16,4.36,4.16,4.3,3.62073,166700
4.21,4.21,4.09,4.12,3.46916,141600
4.08,4.12,4.01,4.01,3.37654,73000
3.9,4.01,3.9,3.97,3.34286,91600
3.95,4.0,3.91,3.92,3.30076,328800
4.28,4.4,4.26,4.28,3.60389,229200
4.1,4.13,4.03,4.03,3.39338,152800
3.93,3.95,3.85,3.87,3.25866,207200
3.99,3.99,3.93,3.96,3.33444,157600
4.02,4.08,4.0,4.04,3.4018,122300
3.91,3.97,3.91,3.94,3.3176,53900
4.23,4.35,4.14,4.29,3.61231,172900
4.5,4.75,4.46,4.69,3.94912,434600
5.29,5.36,5.08,5.27,4.4375,580900
5.01,5.05,4.86,5.05,4.25225,429800
4.32,4.39,4.17,4.32,3.63757,285900
3.75,3.75,3.59,3.65,3.07341,238600
3.94,4.09,3.94,4.07,3.42706,204900
4.0,4.12,3.97,4.1,3.45232,115000
4.5,4.55,4.43,4.51,3.79756,113000
4.75,4.79,4.68,4.69,3.94912,120600
4.95,5.1,4.95,5.05,4.25225,151900
5.1,5.1,4.98,5.09,4.28593,89300
5.31,5.5,5.31,5.44,4.58064,181800
5.7,5.81,5.66,5.73,4.82483,225000
5.55,5.55,5.1,5.1,4.29435,429500
5.55,5.55,5.25,5.34,4.49644,196100
5.15,5.22,5.08,5.12,4.31119,113900
5.5,5.5,5.31,5.38,4.53012,94800
5.11,5.11,4.96,5.08,4.27751,226800
5.21,5.35,5.16,5.33,4.48802,167400
5.28,5.4,5.18,5.39,4.53854,140000
4.4,4.75,4.4,4.72,3.97438,156500
4.82,5.19,4.82,5.19,4.37013,197700
5.04,5.31,5.04,5.31,4.47118,245700
5.44,5.49,5.31,5.43,4.57222,152300
5.36,5.51,5.3,5.5,4.63116,205200
5.09,5.11,4.87,4.91,4.13437,188900
4.71,4.83,4.71,4.83,4.067,114100
4.71,4.8,4.62,4.72,3.97438,358700
4.6,4.74,4.55,4.73,3.9828,134000
4.76,4.82,4.72,4.74,3.99122,55600
4.87,4.94,4.7,4.9,4.12595,350900
4.86,4.89,4.83,4.85,4.08384,142700
5.22,5.28,5.05,5.05,4.25225,120200
5.05,5.1,4.94,4.95,4.16805,150600
5.15,5.24,5.13,5.22,4.3954,138400
5.52,5.58,5.28,5.31,4.47118,225400
5.0,5.0,4.82,4.85,4.08384,131900
4.7,4.79,4.58,4.7,3.95754,370400
4.08,4.15,3.94,3.97,3.34286,230600
4.07,4.09,3.9,3.9,3.28392,159300
3.84,4.11,3.82,4.11,3.46074,162800
4.12,4.12,3.97,4.04,3.4018,84500
3.76,3.9,3.5,3.74,3.14919,291700
3.26,3.37,3.23,3.31,2.78712,127400
3.06,3.35,3.06,3.1,2.61029,141400
3.11,3.12,2.6,2.67,2.24822,231700
1.99,1.99,1.62,1.7,1.43145,744100
2.04,2.04,1.79,1.81,1.52407,79300
2.05,2.27,1.99,2.27,1.91141,164700
2.4,2.44,2.23,2.36,1.98719,163300
1.95,1.95,1.68,1.69,1.42303,220500
2.1,2.15,1.99,2.08,1.75142,125700
2.1,2.33,2.1,2.14,1.80194,146300
2.7,2.84,2.4,2.51,2.11349,361200
2.47,2.66,2.47,2.6,2.18928,140500
2.35,2.5,2.35,2.39,2.01245,60400
2.38,2.57,2.34,2.53,2.13034,144100
2.96,3.17,2.96,3.04,2.55977,141800
2.68,2.75,2.61,2.75,2.31558,117100
2.4,2.53,2.39,2.42,2.03771,113500
2.6,2.6,2.45,2.5,2.10507,88800
2.68,2.68,2.52,2.62,2.20612,108200
2.78,2.86,2.67,2.83,2.38294,167800
2.75,2.75,2.52,2.58,2.17244,212200
2.43,2.5,2.35,2.43,2.04613,156300
2.41,2.49,2.36,2.43,2.04613,163100
2.74,2.77,2.65,2.76,2.324,95100
2.61,2.61,2.52,2.54,2.13876,154300
2.6,2.69,2.52,2.61,2.1977,124500
2.77,2.85,2.7,2.82,2.37452,159900
2.85,2.85,2.66,2.7,2.27348,170000
2.71,2.8,2.68,2.75,2.31558,159700
2.6,2.6,2.46,2.49,2.09665,155000
2.49,2.57,2.49,2.57,2.16402,111600
3.01,3.03,3.0,3.01,2.53451,111300
3.23,3.24,3.11,3.22,2.71134,85600
3.14,3.22,3.11,3.19,2.68608,183200
3.21,3.29,3.21,3.28,2.76186,133900
3.03,3.13,3.03,3.1,2.61029,64600
3.35,3.35,3.25,3.32,2.79554,176600
3.65,3.7,3.59,3.59,3.02289,63600
3.44,3.66,3.35,3.64,3.06499,138400
4.1,4.3,4.1,4.29,3.61231,210800
4.57,4.57,4.35,4.51,3.79756,108700
3.85,3.86,3.68,3.73,3.14077,183400
3.55,3.56,3.41,3.56,2.99763,114000
3.4,3.6,3.4,3.55,2.98921,166500
3.64,3.67,3.57,3.61,3.03973,49000
3.42,3.42,3.29,3.33,2.80396,53900
3.45,3.5,3.45,3.48,2.93026,31100
3.35,3.49,3.33,3.44,2.89658,91900
3.67,3.75,3.62,3.7,3.11551,61500
3.51,3.57,3.48,3.51,2.95553,72700
3.87,3.99,3.8,3.85,3.24182,122100
3.81,3.88,3.75,3.85,3.24182,42200
3.9,3.98,3.81,3.92,3.30076,57400
3.9,3.93,3.85,3.92,3.30076,62800
4.57,4.72,4.43,4.69,3.94912,228900
4.97,5.45,4.96,5.43,4.57222,570600
6.31,6.45,6.29,6.36,5.35531,261500
6.68,6.73,6.61,6.7,5.6416,146800
7.22,7.31,7.2,7.27,6.12156,187600
7.15,7.41,7.15,7.2,6.06261,378100
7.3,7.35,7.1,7.3,6.14682,232600
6.36,6.53,6.16,6.51,5.48161,461300
7.69,7.84,7.3,7.41,6.23944,423600
7.94,7.99,7.82,7.97,6.71098,163800
7.49,7.56,7.3,7.33,6.17208,199800
7.09,7.32,6.91,7.06,5.94473,172800
7.48,7.52,7.25,7.4,6.23102,200600
7.46,7.53,7.37,7.47,6.28996,112200
7.66,7.75,7.5,7.68,6.46679,178100
7.49,7.51,7.43,7.43,6.25628,42800
7.37,7.49,7.35,7.4,6.23102,88900
7.31,7.41,7.19,7.4,6.23102,81400
7.95,8.09,7.85,7.86,6.61835,321500
8.75,8.95,8.67,8.85,7.45197,123000
9.7,9.9,9.55,9.58,8.06665,197700
9.89,10.49,9.89,10.42,8.77395,605500
10.6,10.69,10.22,10.38,8.74027,145600
11.0,11.45,10.97,11.39,9.59072,371900
15.16,15.6,14.9,15.54,13.0851,544100
15.12,15.69,15.02,15.52,13.0683,496700
17.29,18.05,17.25,17.99,15.1481,775900
17.82,17.98,16.9,16.93,14.2556,590600
15.14,15.81,15.14,15.79,13.2957,660400
15.98,16.23,15.81,15.94,13.422,275800
15.41,15.41,15.2,15.32,12.8999,185600
14.32,14.41,13.95,14.29,12.0326,272500
13.39,13.74,13.14,13.33,11.2243,559000
15.53,15.7,15.08,15.45,13.0094,769200
13.76,13.77,13.41,13.72,11.5527,435700
14.43,14.95,14.43,14.92,12.5631,333600
12.65,13.46,12.65,13.37,11.2579,221600
14.16,14.16,13.82,13.89,11.6958,109800
15.24,15.35,15.14,15.35,12.9252,261800
14.33,14.57,14.04,14.17,11.9316,122600
13.92,14.02,13.65,14.0,11.7884,92800
13.43,13.46,13.0,13.03,10.9717,249100
13.52,13.61,13.12,13.13,11.0559,158000
13.31,13.42,13.06,13.33,11.2243,96400
14.22,14.48,14.11,14.17,11.9316,111000
12.73,13.02,12.46,12.91,10.8706,208500
10.94,11.35,10.51,11.32,9.53178,309900
12.96,13.0,11.98,12.41,10.4496,456300
11.96,12.15,11.69,11.76,9.90227,94200
11.8,12.01,11.73,11.88,10.0033,86800
10.04,10.06,9.61,9.92,8.35294,203700
9.62,9.72,9.21,9.33,7.85614,115800
8.64,9.01,8.62,8.99,7.56985,82100
9.68,9.79,9.5,9.62,8.10033,160000
9.28,9.32,9.07,9.17,7.72141,76900
8.85,8.9,8.34,8.5,7.15725,144200
7.9,8.21,7.55,7.55,6.35733,163800
9.06,9.4,8.96,9.04,7.61195,83700
9.39,9.67,9.29,9.52,8.01612,51400
9.75,9.86,9.45,9.71,8.17611,126500
9.69,9.69,9.2,9.27,7.80562,201300
8.32,8.32,7.81,7.91,6.66046,193000
8.1,8.24,7.75,7.92,6.66888,121700
7.51,7.65,7.37,7.48,6.29838,82800
7.86,8.01,7.71,7.91,6.66046,128500
8.2,8.38,8.15,8.25,6.94675,109600
8.99,9.09,8.92,8.96,7.54459,110100
9.64,9.81,9.48,9.48,7.98244,96400
10.34,10.45,9.99,10.05,8.4624,228200
10.4,10.49,10.23,10.44,8.79079,72000
10.46,10.78,10.41,10.75,9.05182,60900
11.55,11.56,11.24,11.4,9.59914,159400
12.21,12.29,11.72,11.81,9.94437,217900
11.6,12.02,11.6,12.02,10.1212,102900
12.41,12.91,12.41,12.61,10.618,127500
13.79,13.79,13.23,13.27,11.1737,151600
13.26,13.28,12.95,12.99,10.938,52400
14.18,14.33,13.36,13.52,11.3842,176200
11.95,11.95,11.02,11.2,9.43073,206200
10.42,10.48,10.07,10.41,8.76553,111000
9.5,9.66,9.0,9.49,7.99086,145000
10.01,10.15,9.7,9.8,8.25189,244400
7.99,8.25,7.83,8.23,6.9299,89800
8.82,9.7,8.8,9.67,8.14243,246600
8.55,8.99,8.55,8.95,7.53617,161800
8.75,8.87,8.63,8.76,7.37618,76300
9.21,9.31,8.82,8.89,7.48565,122700
9.47,9.56,9.39,9.43,7.94034,54500
10.79,10.87,10.69,10.81,9.10234,81600
10.34,10.49,10.11,10.23,8.61397,68700
11.65,11.65,11.34,11.38,9.5823,131400
11.82,11.82,11.12,11.32,9.53178,118500
11.54,11.62,11.06,11.08,9.32969,70000
11.29,11.3,11.12,11.14,9.38021,52500
11.26,11.48,11.23,11.32,9.53178,79900
11.44,12.5,11.44,12.15,10.2307,308300
11.46,11.62,11.32,11.39,9.59072,47600
11.09,11.28,11.08,11.27,9.48968,26100
10.2,10.5,10.2,10.31,8.68133,100500
9.94,9.98,9.37,9.45,7.95718,148100
9.58,9.68,9.58,9.62,8.10033,32200
9.44,9.5,9.25,9.35,7.87298,66000
8.57,8.62,8.4,8.43,7.09831,165800
8.35,8.55,8.25,8.53,7.18251,126100
8.69,8.72,8.62,8.69,7.31724,44300
8.65,8.68,8.42,8.45,7.11515,80500
8.09,8.12,7.77,7.78,6.55099,121800
8.6,9.05,8.6,8.86,7.46038,253900
9.28,9.28,8.94,9.02,7.59511,124000
8.57,8.61,8.53,8.58,7.22462,13800
7.55,7.59,7.47,7.59,6.39101,56300
7.21,7.36,6.87,6.9,5.81001,165300
8.11,8.11,7.78,7.93,6.6773,51800
8.25,8.25,7.94,8.07,6.79518,106100
7.53,7.66,7.39,7.45,6.27312,89700
7.48,7.48,7.28,7.37,6.20576,83400
7.16,7.28,7.08,7.13,6.00367,79700
7.16,7.19,7.08,7.08,5.96157,17600
5.7,5.92,5.7,5.9,4.96798,101200
6.17,6.17,5.83,5.95,5.01008,87700
6.02,6.14,6.02,6.11,5.1448,47700
6.4,6.41,6.2,6.36,5.35531,75700
7.33,7.33,6.78,6.98,5.87737,205800
6.39,6.51,6.3,6.49,5.46477,51000
7.02,7.13,6.92,6.95,5.85211,56400
7.09,7.23,7.01,7.22,6.07946,106900
7.48,7.75,7.41,7.69,6.47521,255500
7.78,8.03,7.74,7.8,6.56783,82100
8.57,9.32,8.57,9.21,7.7551,363300
9.06,9.08,8.99,9.01,7.58669,83000
9.23,9.25,9.06,9.08,7.64563,105000
8.87,9.35,8.87,9.29,7.82246,143900
8.58,9.13,8.58,9.03,7.60353,212100
8.92,8.92,8.68,8.82,7.4267,50100
8.83,9.17,8.8,9.15,7.70457,168200
8.54,8.66,8.45,8.56,7.20778,84600
8.35,8.39,8.13,8.37,7.04779,144300
8.3,8.47,8.16,8.42,7.08989,70600
8.49,8.69,8.47,8.58,7.22462,122400
8.38,8.38,7.86,7.94,6.68572,190900
6.74,7.13,6.73,7.06,5.94473,245900
7.29,7.39,7.23,7.33,6.17208,95300
7.42,7.49,7.31,7.34,6.1805,63400
7.82,7.88,7.64,7.84,6.60151,124000
7.45,7.85,7.25,7.59,6.39101,610400
7.33,7.71,7.32,7.61,6.40785,196900
7.55,7.56,7.16,7.29,6.1384,116500
7.49,7.62,7.46,7.61,6.40785,277800
7.91,7.91,7.8,7.86,6.61835,105600
7.86,7.86,7.16,7.3,6.14682,280400
6.6,6.6,6.4,6.52,5.49004,92200
6.74,6.8,6.65,6.66,5.69433,56200
7.06,7.24,7.06,7.18,6.13893,100700
7.15,7.21,7.12,7.17,6.21636,124000
7.14,7.25,7.13,7.2,6.24237,45700
7.43,7.44,7.15,7.32,6.34641,77900
6.65,6.69,6.54,6.56,5.68749,204200
6.69,6.7,6.58,6.68,5.79153,157800
6.1,6.28,6.04,6.25,5.41872,83900
6.27,6.47,6.25,6.39,5.5401,150300
6.64,6.84,6.64,6.7,5.80887,184500
6.54,6.59,6.47,6.59,5.7135,77700
6.35,6.55,6.34,6.52,5.6976,134300
5.9,5.9,5.81,5.83,5.09464,102600
5.55,5.64,5.55,5.6,4.89365,192800
4.88,4.99,4.72,4.98,4.35185,190600
4.8,4.82,4.66,4.77,4.16834,124900
4.15,4.15,3.84,3.97,3.46925,271300
4.09,4.09,3.77,3.81,3.32943,514700
4.08,4.08,3.73,3.82,3.33817,227200
3.28,3.39,3.13,3.37,2.94493,392800
2.91,3.03,2.86,2.9,2.57716,358600
3.55,3.68,3.48,3.57,3.17258,83400
3.71,3.81,3.49,3.55,3.1548,355000
2.96,3.04,2.7,2.75,2.44386,552700
2.87,3.07,2.87,2.94,2.61271,217500
3.1,3.23,3.09,3.1,2.7549,207900
3.27,3.3,3.21,3.25,2.8882,180300
2.96,3.04,2.89,2.89,2.56828,214100
2.99,3.06,2.97,2.97,2.63937,245100
2.82,3.04,2.81,3.02,2.7296,435000
3.45,3.62,3.41,3.55,3.20864,435400
3.9,3.99,3.79,3.91,3.53402,260700
4.37,4.4,4.22,4.28,3.86844,237400
4.4,4.43,4.24,4.37,3.94979,278500
4.47,4.5,4.08,4.08,3.68768,587800
4.11,4.21,4.08,4.18,3.77806,104400
3.97,4.01,3.89,3.94,3.56114,176400
4.06,4.14,4.06,4.12,3.72383,125200
4.1,4.1,3.88,3.93,3.59531,205900
4.02,4.1,4.02,4.03,3.6868,67400
3.7,3.89,3.7,3.79,3.46724,150300
3.35,3.39,3.17,3.2,2.92748,337200
2.83,2.95,2.81,2.88,2.63473,153900
2.93,3.08,2.82,3.04,2.78111,155300
2.95,3.0,2.82,2.84,2.59814,142200
2.72,2.87,2.66,2.86,2.61644,181800
2.77,2.81,2.73,2.76,2.52495,202700
2.74,2.88,2.74,2.86,2.66543,146100
2.71,2.71,2.53,2.63,2.45108,179400
2.84,2.99,2.84,2.97,2.76795,108200
2.72,2.84,2.7,2.84,2.64679,123300
2.67,2.67,2.56,2.56,2.38584,230600
2.73,2.75,2.66,2.73,2.54428,119300
2.33,2.33,2.16,2.17,2.02237,343500
2.05,2.12,2.0,2.09,1.94782,161800
2.15,2.16,1.99,2.02,1.88258,138700
1.67,1.71,1.62,1.63,1.54178,177300
1.89,1.89,1.79,1.8,1.70258,29700
1.71,1.72,1.67,1.7,1.608,92800
1.32,1.32,1.23,1.28,1.21073,248400
1.24,1.36,1.24,1.35,1.27694,144600
1.28,1.3,1.24,1.24,1.17289,117300
1.25,1.42,1.25,1.39,1.31477,167600
1.53,1.53,1.43,1.44,1.36207,110800
1.84,1.84,1.7,1.72,1.62691,204800
1.69,1.72,1.63,1.68,1.58908,273500
1.62,1.63,1.59,1.63,1.54178,113400
1.65,1.7,1.65,1.69,1.59854,78400
1.69,1.8,1.68,1.8,1.70258,106800
2.02,2.03,1.95,1.99,1.8823,125000
1.86,1.94,1.79,1.94,1.83501,176200
1.94,1.96,1.91,1.93,1.82555,44800
1.77,1.78,1.74,1.78,1.68367,45600
1.73,1.78,1.71,1.78,1.68367,100600
1.61,1.62,1.55,1.6,1.51341,151300
1.8,1.8,1.65,1.75,1.65529,68900
1.85,1.85,1.72,1.74,1.64583,27000
1.76,1.8,1.76,1.79,1.69312,34800
1.72,1.72,1.6,1.63,1.54178,31100
1.59,1.61,1.58,1.59,1.50395,38800
1.92,1.96,1.92,1.92,1.81609,35600
1.89,1.94,1.88,1.92,1.81609,33500
1.93,1.96,1.87,1.94,1.83501,39300
1.91,1.98,1.88,1.95,1.84447,131800
1.92,1.94,1.85,1.87,1.76879,120300
2.06,2.06,2.0,2.04,1.92959,101100
2.13,2.16,2.08,2.13,2.01472,93600
1.96,1.96,1.85,1.93,1.82555,130700
1.83,1.84,1.77,1.82,1.7215,19300
1.76,1.78,1.75,1.76,1.66475,51600
1.77,1.82,1.73,1.78,1.68367,47500
1.9,1.99,1.8,1.81,1.71204,399100
1.85,1.85,1.71,1.71,1.61745,180400
1.68,1.7,1.65,1.68,1.58908,79100
1.86,1.89,1.81,1.84,1.74042,143100
1.78,1.86,1.76,1.8,1.70258,64800
1.74,1.8,1.74,1.78,1.68367,86100
1.72,1.73,1.66,1.69,1.59854,109600
1.8,1.81,1.72,1.75,1.65529,101000
1.67,1.68,1.64,1.68,1.58908,65600
1.58,1.61,1.55,1.59,1.50395,230600
1.56,1.66,1.55,1.6,1.51341,137300
1.5,1.56,1.49,1.54,1.45665,60000
1.57,1.63,1.57,1.6,1.51341,73500
1.5,1.55,1.5,1.51,1.42828,19700
1.49,1.52,1.46,1.51,1.42828,78400
1.39,1.51,1.39,1.47,1.39044,101100
1.64,1.65,1.53,1.54,1.45665,36400
1.5,1.52,1.48,1.49,1.40936,43300
1.39,1.41,1.36,1.39,1.31477,102200
1.23,1.3,1.21,1.28,1.21073,106100
1.32,1.33,1.27,1.28,1.21073,30600
1.32,1.32,1.28,1.29,1.22018,46300
1.36,1.37,1.34,1.36,1.2864,39200
1.34,1.36,1.33,1.33,1.25802,28400
1.27,1.3,1.23,1.25,1.18235,14800
1.22,1.25,1.21,1.23,1.16343,106800
1.3,1.3,1.21,1.26,1.19181,63200
1.3,1.33,1.28,1.28,1.21073,34700
1.23,1.26,1.07,1.07,1.01209,438800
1.27,1.33,1.27,1.31,1.2391,96100
1.44,1.5,1.43,1.48,1.3999,56400
1.59,1.65,1.58,1.6,1.51341,41200
1.57,1.58,1.54,1.54,1.45665,19400
1.64,1.69,1.43,1.48,1.3999,631000
1.49,1.5,1.47,1.48,1.3999,43800
1.46,1.5,1.46,1.5,1.41882,2700
1.44,1.45,1.42,1.43,1.35261,13700
1.34,1.34,1.31,1.33,1.25802,102200
1.34,1.37,1.33,1.34,1.26748,61000
1.44,1.44,1.41,1.44,1.36207,98900
1.46,1.46,1.44,1.45,1.37153,28300
1.48,1.51,1.48,1.49,1.40936,77600
1.4,1.4,1.36,1.4,1.32423,93400
1.35,1.35,1.3,1.3,1.22964,52800
1.31,1.35,1.27,1.27,1.20127,92600
1.31,1.31,1.27,1.28,1.21073,160600
1.32,1.35,1.32,1.34,1.26748,27700
1.33,1.35,1.31,1.32,1.24856,39400
1.29,1.33,1.25,1.27,1.20127,134100
1.4,1.46,1.39,1.39,1.31477,149300
1.74,1.75,1.63,1.65,1.5607,241500
1.96,2.05,1.91,1.99,1.8823,303100
2.05,2.1,2.03,2.04,1.92959,664300
2.24,2.32,2.13,2.29,2.16606,290200
2.49,2.52,2.41,2.45,2.3174,279100
2.23,2.38,2.23,2.33,2.2039,253700
2.44,2.68,2.44,2.63,2.48766,920900
2.98,3.3,2.95,3.29,3.11194,1352500
3.52,3.65,3.37,3.59,3.39571,999100
3.36,3.36,3.14,3.18,3.0079,540200
3.1,3.28,3.1,3.19,3.01736,304700
2.92,3.11,2.88,3.07,2.90385,606000
3.49,3.53,3.42,3.47,3.2822,231800
3.28,3.35,3.18,3.24,3.09597,251700
3.61,3.65,3.53,3.55,3.39219,185700
3.43,3.44,3.33,3.34,3.19152,448800
3.31,3.36,3.11,3.32,3.17241,1167900
3.01,3.14,3.0,3.11,2.97175,318600
2.38,2.5,2.27,2.45,2.34109,526100
2.36,2.42,2.3,2.37,2.26464,210500
2.41,2.42,2.12,2.15,2.05442,243400
2.14,2.21,2.14,2.17,2.07353,263700
2.11,2.15,1.92,1.96,1.87287,267500
1.79,1.84,1.75,1.77,1.69132,336800
1.62,1.68,1.58,1.68,1.60532,116300
2.09,2.09,1.98,2.04,1.94931,74400
1.92,1.96,1.9,1.94,1.85376,40400
1.8,1.82,1.67,1.73,1.65309,257800
1.93,1.94,1.83,1.87,1.78687,23400
2.09,2.18,2.06,2.12,2.02576,204800
2.03,2.05,1.98,1.98,1.89198,72500
2.03,2.13,2.03,2.07,1.97798,59500
2.18,2.18,2.12,2.14,2.04487,155900
1.87,1.95,1.86,1.89,1.841,83000
1.86,1.89,1.85,1.86,1.81178,56600
1.85,1.88,1.85,1.88,1.83126,76700
1.95,1.97,1.92,1.95,1.89944,58200
1.83,1.83,1.79,1.81,1.76307,34000
1.72,1.73,1.68,1.7,1.65593,189300
1.53,1.55,1.5,1.5,1.46111,94500
1.54,1.56,1.47,1.49,1.45137,195500
1.48,1.48,1.39,1.4,1.3637,164500
1.42,1.42,1.39,1.39,1.35396,56200
1.38,1.46,1.38,1.45,1.41241,426000
1.43,1.46,1.42,1.45,1.41241,102600
1.39,1.49,1.36,1.48,1.44163,180000
1.43,1.46,1.41,1.44,1.40267,134600
1.47,1.49,1.42,1.45,1.41241,143000
1.34,1.36,1.34,1.35,1.315,99900
1.41,1.46,1.41,1.45,1.45,130400
1.46,1.5,1.43,1.44,1.44,274600
1.35,1.36,1.32,1.33,1.33,168800
1.35,1.35,1.29,1.31,1.31,91700
1.27,1.27,1.25,1.27,1.27,112500
1.2,1.22,1.19,1.2,1.2,139000
1.27,1.27,1.21,1.23,1.23,56700
1.17,1.19,1.17,1.18,1.18,123400
1.15,1.17,1.13,1.16,1.16,118700
1.16,1.2,1.15,1.19,1.19,155700
1.28,1.31,1.24,1.25,1.25,239400
1.43,1.47,1.43,1.43,1.43,134400
1.4,1.43,1.33,1.34,1.34,203800
1.39,1.41,1.34,1.39,1.39,166600
1.27,1.27,1.23,1.24,1.24,36800
1.3,1.3,1.24,1.28,1.28,78300
1.24,1.24,1.19,1.22,1.22,144900
1.01,1.09,1.01,1.09,1.09,307200
0.75,0.83,0.68,0.79,0.79,188500
0.45,0.45,0.32,0.38,0.38,206300
0.41,0.41,0.35,0.36,0.36,196800
0.4,0.41,0.3,0.34,0.34,361000